# DESCRIPTION:
# Reference: Genty, D et al. (2010): Isotopic characterization of rapid climatic events during OIS3 and OIS4 in Villars Cave stalagmites (SW-France) and correlation with Atlantic and Mediterranean pollen records. Quaternary Science Reviews, 29(19-20), 2799-2820, https://doi.org/10.1016/j.quascirev.2010.06.035
# Data from: https://doi.org/10.1594/PANGAEA.817539. Accessed 22 Nov 2022.
# Comment: Several variables from the original dataset are not included here.

Age dated [ka],δ18O carb [‰ PDB],δ13C carb [‰ PDB]
31.488,-2.89,-4.97
31.649,-3.19,-6.47
31.81,-3.12,-6.77
31.971,-3.05,-6.47
32.083,-3.12,-7.21
32.349,-3.37,-6.43
32.614,-3.15,-6.17
32.694,-3.35,-6.55
32.888,-3.54,-6.93
33.153,-3.24,-6.22
33.298,-3.27,-7.1
33.338,-3.23,-8.17
33.418,-3.22,-8.87
33.692,-3.78,-8.13
33.957,-3.6,-8.44
34.223,-3.41,-7.36
34.496,-3.11,-5.47
34.625,-2.84,-7.04
34.762,-3.5,-8.78
35.027,-3.58,-8.95
35.108,-3.21,-8.02
35.301,-3.21,-8.02
35.566,-3.54,-8.1
35.832,-3.34,-8.19
35.992,-3.54,-8.5
36.185,-3.74,-8.81
36.641,-3.61,-8.66
37.096,-3.4,-7.96
37.565,-3.35,-7.73
38.021,-3.2,-7.44
38.476,-3.28,-7.69
38.945,-3.3,-7.17
39.166,-3.28,-6.79
39.234,-3.25,-6.4
39.364,-3.36,-6.71
39.497,-3.19,-7.88
39.627,-3.22,-7.3
39.757,-3.21,-7.57
39.89,-3.27,-7.8
40.02,-3.24,-6.91
40.15,-3.44,-7.8
40.284,-3.5,-7.7
40.365,-3.51,-7.94
40.478,-3.52,-8.19
40.492,-3.59,-7.49
40.501,-3.59,-7.49
40.501,-3.18,-8.14
40.507,-3.18,-8.14
40.521,-3.45,-9.43
40.535,-3.42,-9.61
40.549,-3.54,-9.72
40.563,-3.38,-9.48
40.577,-3.38,-7.32
40.592,-3.33,-6.95
40.605,-3.14,-7.39
40.606,-2.95,-7.82
40.62,-3.23,-7.08
40.634,-2.88,-5.96
40.649,-3.01,-5.93
40.663,-3.07,-5.46
40.677,-3.37,-8.4
40.686,-3.21,-8.84
40.721,-3.05,-9.29
40.816,-3.23,-9.21
40.914,-3.5,-8.33
41.01,-3.62,-8.22
41.105,-3.58,-7.94
41.203,-3.62,-7.76
41.298,-3.26,-6.58
41.393,-3.58,-5.86
41.681,-3.58,-7.98
41.779,-3.73,-9.01
41.796,-3.68,-8.94
41.828,-3.64,-8.86
41.868,-3.78,-7.59
41.88,-3.54,-8.27
42.012,-3.3,-8.95
42.045,-3.45,-7.51
42.079,-3.86,-8.12
42.113,-3.58,-8.07
42.146,-3.37,-8.49
42.179,-3.69,-7.24
42.213,-3.6,-8.2
42.247,-3.24,-8.52
42.28,-3.42,-9.34
42.314,-3.74,-8.72
42.347,-3.54,-9.5
42.36,-3.54,-9.5
42.36,-3.39,-8.83
42.381,-3.39,-8.83
42.415,-3.18,-8.33
42.448,-3.77,-8.37
42.481,-3.13,-6.72
42.515,-3.15,-7.73
42.549,-3.43,-8.42
42.582,-3.56,-9.37
42.616,-3.65,-9.8
42.649,-3.64,-10.27
42.682,-3.57,-10.56
42.783,-4.25,-9.88
42.884,-3.84,-9.75
42.984,-3.54,-10.12
43.085,-4.32,-10.19
43.186,-4.03,-10.11
43.286,-3.97,-9.45
43.387,-4.37,-9.28
43.487,-4.08,-9.28
43.588,-3.9,-10.13
43.689,-3.68,-10.57
43.739,-3.78,-10.49
43.789,-3.88,-10.42
43.89,-4.14,-9.7
43.991,-4.1,-10.47
44.091,-3.98,-10.1
44.192,-4.24,-10.62
44.292,-4.19,-9.68
44.393,-4.35,-9.73
44.494,-4.66,-9.32
44.594,-4.34,-10.01
44.695,-4.25,-10.06
44.796,-4.27,-10.92
44.896,-4.33,-10.83
44.997,-4.4,-10.75
45.098,-4.49,-11.09
45.198,-4.61,-11.01
45.299,-4.13,-11.02
45.399,-4.19,-10.31
45.485,-4.1,-9.41
45.947,-4.02,-8.52
46.349,-3.65,-8.53
46.751,-3.51,-7.53
47.093,-3.68,-8.66
47.11,-3.84,-9.78
47.221,-3.77,-8.45
47.331,-3.87,-9.18
47.442,-3.52,-9.04
47.552,-3.63,-9.41
47.663,-3.86,-8.16
47.773,-3.82,-8.47
47.884,-3.91,-8.11
47.995,-3.19,-7.82
48.044,-3.51,-8.09
48.149,-3.84,-8.36
48.339,-3.46,-9.8
48.528,-3.8,-10.23
48.718,-3.84,-9.86
48.908,-4.11,-10.17
49.097,-3.74,-8.97
49.287,-3.87,-9.76
49.476,-3.93,-9.77
49.666,-4.03,-9.2
49.856,-4.32,-10.14
50.045,-3.68,-9.4
50.235,-3.68,-10.05
50.31,-3.66,-9.86
50.364,-3.63,-9.68
50.541,-3.66,-9.53
50.63,-3.78,-10.07
50.719,-3.52,-10.49
50.808,-3.75,-10.49
50.897,-4.11,-10.6
50.985,-4.01,-9.72
51.074,-3.91,-9.38
51.163,-4.17,-10.12
51.252,-4.1,-9.46
51.341,-4.04,-9.55
51.43,-3.78,-9.18
51.518,-3.91,-8.9
51.607,-4.32,-8.86
51.696,-4.18,-9.01
51.749,-4.23,-9.17
51.785,-4.29,-9.33
51.803,-4.29,-9.33
55.692,-3.91,-9.63
55.748,-3.91,-9.63
55.834,-3.82,-9.65
55.883,-4.11,-9.83
55.936,-4.04,-9.95
56.017,-4.03,-9.23
56.155,-3.72,-8.98
56.29,-4.02,-9.57
56.424,-4.25,-9.24
56.562,-3.73,-9.66
56.696,-3.71,-9.65
56.831,-3.9,-9.68
56.969,-3.96,-9.58
57.103,-3.85,-9.57
57.238,-4.1,-9.53
57.376,-4.05,-9.45
57.482,-3.84,-9.34
57.527,-3.63,-9.23
57.739,-3.8,-8.21
57.958,-3.51,-8.22
58.17,-3.94,-8.92
58.382,-4.28,-9.21
58.6,-4.19,-9.21
58.639,-4.17,-9.39
58.772,-4.14,-9.57
58.934,-4.21,-9.57
59.101,-4.43,-8.55
59.263,-4.12,-8.22
59.426,-4.12,-8.91
59.593,-4.01,-6.69
59.755,-4.01,-6.71
59.917,-3.9,-5.75
60.084,-3.44,-5.66
60.246,-3.5,-5.86
60.408,-3.68,-5.34
60.575,-3.89,-5.95
60.737,-4.02,-5.61
60.801,-3.74,-5.3
61.067,-3.46,-4.98
61.145,-3.46,-4.98
67.408,-2.94,-7.2
67.443,-2.94,-7.2
67.547,-2.67,-6.77
67.617,-2.97,-6.67
67.756,-2.7,-6.52
67.895,-3.06,-7.25
67.992,-3.43,-7.98
68.221,-3.46,-7.76
68.45,-3.26,-9.11
68.686,-3.44,-9.22
68.916,-3.12,-9.48
69.145,-3.67,-9.51
69.381,-3.77,-9.59
69.84,-3.8,-10.02
70.076,-4.02,-9.93
70.305,-3.79,-9.82
70.534,-4.01,-9.8
70.77,-4.18,-10.43
70.882,-4.07,-10.35
70.901,-3.96,-10.26
70.938,-3.92,-9.97
70.976,-3.71,-9.71
71.012,-3.46,-9.04
71.049,-3.35,-8.58
71.087,-4.12,-9.45
71.123,-4.26,-9.86
71.16,-4.13,-9.67
71.198,-4.42,-9.88
71.204,-4.33,-10.1
71.315,-4.24,-10.33
71.451,-4.26,-10.07
71.863,-4.43,-10.1
72.275,-4.3,-10.36
72.687,-4.36,-10.2
73.099,-4.28,-10.29
73.511,-4.3,-10.19
73.924,-4.13,-10.11
74.336,-4.37,-9.92
74.476,-4.22,-10.28
74.542,-4.38,-10.28
74.547,-4.54,-10.28
74.558,-4.21,-9.45
74.569,-3.97,-8.2
74.58,-4.3,-7.37
74.591,-3.95,-6.79
74.602,-4,-7.54
74.607,-4.36,-7.81
74.612,-4.71,-8.08
74.623,-4.89,-9.05
74.63,-4.89,-9.3
74.638,-4.68,-8.89
74.643,-4.11,-8.09
74.649,-4.54,-9.24
74.656,-4.7,-9.52
74.688,-4.62,-9.62
74.721,-4.53,-9.53
74.755,-4.66,-9.78
74.756,-4.79,-10.04
74.763,-4.2,-9.6
74.769,-4.54,-10.02
74.776,-4.54,-10.02
78.808,-4.55,-9.84
78.826,-4.55,-9.84
78.863,-4.61,-9.79
78.9,-4.87,-9.05
78.928,-4.97,-9.4
78.937,-5.07,-9.75
78.975,-4.33,-8.61
79.012,-4.74,-9.82
79.049,-4.74,-9.74
79.234,-4.55,-9.22
79.42,-4.59,-9.43
79.605,-4.63,-9.86
79.791,-4.7,-10.22
79.977,-4.52,-9.84
80.162,-4.31,-9.76
80.348,-4.48,-9.09
80.533,-4.31,-9.07
80.793,-4.31,-9.07
80.793,-4.21,-8.97
80.867,-4.11,-8.86
81.403,-3.91,-8.65
81.849,-4.19,-9.24
82.296,-4.47,-9.27
82.497,-4.47,-8.99
82.905,-4.46,-8.71
